{
    "resourceType": "Bundle",
    "id": "bundle-transaction",
    "type": "transaction",
    "entry": [
        {
            "fullUrl": "urn:uuid:d9cfb896-0360-49e6-acaf-d12035ab594b",
            "resource": {
                // recurso Patient
            },
            "request": {
                "method": "POST",
                "url": "Patient"
            }
        },
        {
            "fullUrl": "urn:uuid:e421a9b3-8375-49b3-9424-302f1f7da773",
            "resource": {
                // Recurso Practitioner
            },
            "request": {
                "method": "POST",
                "url": "Location"
            }
        },
        },
        {
            "fullUrl": "urn:uuid:952a86d6-e253-46f9-87c1-d3cd5505b46a",
            "resource": {
                // recurso Location
            },
            "request": {
                "method": "POST",
                "url": "Location"
            }
        },
        {
            "fullUrl": "urn:uuid:f980b02b-3754-442d-9a6c-de0fc7921493",
            "resource": {
                "resourceType": "Encounter",
                "id": "enc-001",
                "status": "in-progress",
                "class": [
                    {
                        "coding": [
                            {
                                "code": "AMB",
                                "system": "https://terminology.hl7.org/5.1.0/CodeSystem-v3-ActCode.html",
                                "display": "Ambulatory"
                            }
                        ]
                    }
                ],
                "priority": {
                    "coding": [
                        {
                            "code": "R",
                            "display": "routine",
                            "system": "http://terminology.hl7.org/CodeSystem/v3-ActPriority"
                        }
                    ]
                },
                "subject": {
                    "reference": "urn:uuid:d9cfb896-0360-49e6-acaf-d12035ab594b",
                    "display": "Olivia Herrera Andrade"
                },
                "participant": [
                    {
                        "actor": {
                            "reference": "urn:uuid:e421a9b3-8375-49b3-9424-302f1f7da773",
                            "display": "Franco Moreno Pineda"
                        }
                    }
                ],
                "location": [
                    {
                        "location": {
                            "reference": "urn:uuid:952a86d6-e253-46f9-87c1-d3cd5505b46a",
                            "display": "Centro Médico Las Aguilas"
                        }
                    }
                ],
                "plannedStartDate": "2023-06-06T17:15:00.000Z"
            },
            "request": {
                "method": "POST",
                "url": "Encounter"
            }
        }
    ]
}
